Folder: EV_Battery_DVA_Clustering/input

Note: README.md
# EV_Battery_DVA_Clustering
Repository for battery cell clustering based on differential voltage analysis (DVA) in python

This repository provides a codebase for clustering algorithms on interconnected battery cell discharge tests. 

[Manuel Ank](mailto:manuel.ank@tum.de),<br/>
**[Institute of Automotive Technology](https://www.mos.ed.tum.de/en/ftm/home/)**,<br/>
**[Technical University of Munich, Germany](https://www.tum.de/en/)**

## Features
- Clustering based on DBSCAN, hierarchical, HDBSCAN and k-means
- Calculating of differential voltage analysis (DVA) and incremental capacity analysis (ICA)
- Peakfinder (extrema)
- Options for plotting, cell discard and data import from BioLogic measurement devices

## Usage of the code provided

We are very happy if you choose this model implementation and auxiliaries for your projects and provide all updates under GNU LESSER GENERAL PUBLIC LICENSE Version 3 (29 June 2007). Please refer to the license file for any further questions about incorporating these scripts into your projects.
We are looking forward to hearing your feedback and kindly ask you to share bugfixes, improvements and updates on the files provided.

## Getting started

The repository was tested with Python 3.10.

- Setup a virtual environment
- Run 'main.py' with the test file provided in the input folder

If you want to commit an updated version using another software release or a specific toolbox please give us a short heads-up. 


## Authors and Maintainers

- Manuel Ank, manuel.ank@tum.de
- Tobias Brehler, tobias.brehler@tum.de

## Contributions

[1] T. Brehler, "Implementation of Clustering Algorithms for Classification of Lithium-Ion Battery Cells for Electric Vehicles", Semester Thesis, Technical University of Munich, 2022

[2] M. Ank, T. Brehler and M. Lienkamp, "Implementation of clustering algorithms for multi-cell characterization of lithium-ion battery cells for electric vehicles", Batterieforum Berlin, 2023.

  
## License

This project is licensed under the GPL License - see the LICENSE file for details.

File: Test1_03_MB.txt
EC-Lab ASCII FILE
Nb header lines : 95

Modulo Bat

Run on channel : 1 (SN 65331)
Stack channel(s) : 1, 2, 3
User :
CE vs. WE compliance from -20 V to 0 V
Electrode connection : standard
Potential control : Ewe
Ewe ctrl range : min = 0,00 V, max = 20,00 V
Safety Limits :
	Ewe max = 17,50 V
	E stack slave max = 4,40 V
	for t > 10 ms
	Do not start on E overload
Acquisition started on : 08/24/2022 09:45:53.607
Loaded Setting File :  NONE
Saved on :
	File : ~Test3_03_MB_C01.mpr
	Directory : W:\Projekte\Batterielabor\02_Messexport\Ank\SA Brehler\Knopfzellen Strang\
	Host : 10.33.33.222
Device : VSP-3e (SN .003188)
Address : 10.33.33.221
EC-Lab for windows v11.43 (software)
Internet server v11.40 (firmware)
Command interpretor v11.40 (firmware)
Electrode material :
Initial state :
Electrolyte :
Comments : Median 4,490 mAh
Mass of active material : 0,001 mg
 at x = 0,000
Molecular weight of active material (at x = 0) : 0,001 g/mol
Atomic weight of intercalated ion : 0,001 g/mol
Acquisition started at : xo = 0,000
Number of e- transfered per intercalated ion : 1
for DX = 1, DQ = 26,802 mA.h
Battery capacity : 4,490 mA.h
Electrode surface area : 0,000 cm²
Characteristic mass : 0,001 g
Volume (V) : 0,001 cm³
Record Ece
Cycle Definition : Charge/Discharge alternance
Ns                  0                   1                   2                   3                   4
ctrl_type           Rest                CC                  Rest                CC                  Rest
Apply I/C           I                   C / N               I                   C / N               I
current/potential   current             current             current             current             current
ctrl1_val                               100,000                                 100,000
ctrl1_val_unit                          mA                                      mA
ctrl1_val_vs                            <None>                                  <None>
ctrl2_val
ctrl2_val_unit
ctrl2_val_vs
ctrl3_val
ctrl3_val_unit
ctrl3_val_vs
N                   0,00                1,00                0,00                20,00               0,00
charge/discharge    Charge              Discharge           Charge              Discharge           Charge
charge/discharge_1  Charge              Charge              Charge              Charge              Charge
Apply I/C_1         I                   I                   I                   I                   I
N1                  0,00                0,00                0,00                0,00                0,00
ctrl4_val
ctrl4_val_unit
ctrl_seq            0                   0                   0                   0                   0
ctrl_repeat         0                   0                   0                   0                   0
ctrl_trigger        Falling Edge        Falling Edge        Falling Edge        Falling Edge        Falling Edge
ctrl_TO_t           0,000               0,000               0,000               0,000               0,000
ctrl_TO_t_unit      d                   d                   d                   d                   d
ctrl_Nd             6                   6                   6                   6                   6
ctrl_Na             2                   2                   2                   2                   2
ctrl_corr           0                   0                   0                   0                   0
lim_nb              1                   1                   1                   1                   1
lim1_type           Time                Time                Time                Time                Time
lim1_comp           >                   >                   >                   >                   >
lim1_Q              Q limit             Q limit             Q limit             Q limit             Q limit
lim1_value          10,000              1,000               5,000               16,000              5,000
lim1_value_unit     mn                  s                   s                   h                   mn
lim1_action         Next sequence       Next sequence       Next sequence       Next sequence       Next sequence
lim1_seq            1                   2                   3                   4                   5
rec_nb              1                   1                   1                   1                   1
rec1_type           Time                Time                Time                Time                Time
rec1_value          1,000               1,000               1,000               0,500               1,000
rec1_value_unit     s                   ms                  ms                  s                   s
E range min (V)     0,000               0,000               0,000               0,000               0,000
E range max (V)     20,000              20,000              20,000              20,000              20,000
I Range             10 mA               10 mA               10 mA               1 mA                10 mA
I Range min         Unset               Unset               Unset               Unset               Unset
I Range max         Unset               Unset               Unset               Unset               Unset
I Range init        Unset               Unset               Unset               Unset               Unset
auto rest           1                   1                   1                   1                   1
Bandwidth           5                   5                   5                   5                   5

time/s	Estack/V	E1/V	E2/V	E3/V	E4/V	I/mA	(Q-Qo)/mA.h
3,416732118527580E+002	1,6574368E+001	4,1446390E+000	4,1514602E+000	4,1257114E+000	4,1450601E+000	0,0000000E+000	0,000000000000000E+000
5,976732053856540E+002	1,6575008E+001	4,1449022E+000	4,1514888E+000	4,1257792E+000	4,1450434E+000	0,0000000E+000	0,000000000000000E+000
8,536731989185500E+002	1,6574688E+001	4,1447496E+000	4,1515079E+000	4,1259131E+000	4,1451006E+000	0,0000000E+000	0,000000000000000E+000
9,417923966924718E+002	1,5806420E+001	3,9179504E+000	4,0482073E+000	3,8861294E+000	4,0498629E+000	-4,4884768E+000	-2,066207198533747E-004
9,420483966860047E+002	1,5791101E+001	3,9141264E+000	4,0447736E+000	3,8806510E+000	4,0472584E+000	-4,4889851E+000	-5,258342253333993E-004
9,423043966795376E+002	1,5784925E+001	3,9129117E+000	4,0429058E+000	3,8782647E+000	4,0458455E+000	-4,4886675E+000	-8,450676403277451E-004
9,425603966730705E+002	1,5779392E+001	3,9121437E+000	4,0416293E+000	3,8768468E+000	4,0446320E+000	-4,4891129E+000	-1,164305310616891E-003
9,428655966653605E+002	1,6547018E+001	4,1387539E+000	4,1451678E+000	4,1161199E+000	4,1397247E+000	0,0000000E+000	-1,245610848502980E-003
9,431215966588934E+002	1,6554396E+001	4,1404510E+000	4,1467643E+000	4,1186976E+000	4,1409140E+000	0,0000000E+000	-1,245610848502980E-003
9,433775966524263E+002	1,6557123E+001	4,1410537E+000	4,1473026E+000	4,1199484E+000	4,1413932E+000	0,0000000E+000	-1,245610848502980E-003
9,436335966459592E+002	1,6558567E+001	4,1412883E+000	4,1475778E+000	4,1206446E+000	4,1416674E+000	0,0000000E+000	-1,245610848502980E-003
9,438895966394921E+002	1,6560411E+001	4,1414294E+000	4,1478634E+000	4,1210499E+000	4,1420093E+000	0,0000000E+000	-1,245610848502980E-003
9,441455966330250E+002	1,6561132E+001	4,1417546E+000	4,1480856E+000	4,1214409E+000	4,1421289E+000	0,0000000E+000	-1,245610848502980E-003
9,444015966265579E+002	1,6561615E+001	4,1418395E+000	4,1482692E+000	4,1216788E+000	4,1422305E+000	0,0000000E+000	-1,245610848502980E-003
9,446575966200908E+002	1,6562496E+001	4,1419444E+000	4,1484413E+000	4,1219602E+000	4,1424618E+000	0,0000000E+000	-1,245610848502980E-003
9,449135966136237E+002	1,6562176E+001	4,1421213E+000	4,1484733E+000	4,1220598E+000	4,1424408E+000	0,0000000E+000	-1,245610848502980E-003
9,451695966071566E+002	1,6563219E+001	4,1422567E+000	4,1485095E+000	4,1222582E+000	4,1425629E+000	0,0000000E+000	-1,245610848502980E-003
9,454255966006895E+002	1,6563620E+001	4,1423182E+000	4,1487007E+000	4,1223946E+000	4,1427207E+000	0,0000000E+000	-1,245610848502980E-003
9,456815965942224E+002	1,6563379E+001	4,1423945E+000	4,1487908E+000	4,1224346E+000	4,1426964E+000	0,0000000E+000	-1,245610848502980E-003
9,459375965877553E+002	1,6564341E+001	4,1424317E+000	4,1488676E+000	4,1225958E+000	4,1427021E+000	0,0000000E+000	-1,245610848502980E-003
9,461935965812881E+002	1,6564100E+001	4,1424575E+000	4,1489677E+000	4,1225734E+000	4,1427917E+000	0,0000000E+000	-1,245610848502980E-003
9,464495965748210E+002	1,6564341E+001	4,1425395E+000	4,1490173E+000	4,1228395E+000	4,1428843E+000	0,0000000E+000	-1,245610848502980E-003
9,467055965683539E+002	1,6564823E+001	4,1425328E+000	4,1489720E+000	4,1227970E+000	4,1428752E+000	0,0000000E+000	-1,245610848502980E-003
9,469615965618868E+002	1,6565624E+001	4,1425915E+000	4,1491394E+000	4,1229339E+000	4,1429830E+000	0,0000000E+000	-1,245610848502980E-003
9,472175965554197E+002	1,6564743E+001	4,1427054E+000	4,1490507E+000	4,1229262E+000	4,1429791E+000	0,0000000E+000	-1,245610848502980E-003
9,474735965489526E+002	1,6565865E+001	4,1426587E+000	4,1491566E+000	4,1229858E+000	4,1430779E+000	0,0000000E+000	-1,245610848502980E-003
9,981755952681124E+002	1,6223236E+001	4,0527382E+000	4,0879745E+000	4,0190845E+000	4,0899329E+000	-1,4965836E+000	-2,223824103674707E-002
1,126175592034560E+003	1,6107264E+001	4,0214891E+000	4,0569386E+000	3,9871771E+000	4,0675688E+000	-1,4964945E+000	-7,544802717318883E-002
1,254175588801008E+003	1,6019842E+001	3,9923737E+000	4,0343099E+000	3,9691594E+000	4,0505843E+000	-1,4965582E+000	-1,286578120467737E-001
1,382175585567456E+003	1,5942926E+001	3,9654806E+000	4,0155940E+000	3,9529212E+000	4,0345182E+000	-1,4965327E+000	-1,818677616453113E-001
1,510175582333904E+003	1,5872508E+001	3,9389095E+000	3,9990568E+000	3,9420598E+000	4,0188313E+000	-1,4965136E+000	-2,350776740415096E-001
1,638175579100352E+003	1,5807944E+001	3,9189489E+000	3,9836271E+000	3,9282837E+000	4,0032210E+000	-1,4965327E+000	-2,882874455763035E-001
1,766175575866801E+003	1,5732312E+001	3,8996735E+000	3,9690740E+000	3,9024432E+000	3,9878588E+000	-1,4965200E+000	-3,414973037845824E-001
1,894175572633249E+003	1,5661413E+001	3,8775730E+000	3,9549415E+000	3,8827689E+000	3,9727452E+000	-1,4965264E+000	-3,947071081519657E-001
2,022175569399697E+003	1,5604790E+001	3,8598268E+000	3,9409442E+000	3,8724251E+000	3,9578986E+000	-1,4965708E+000	-4,479170399646891E-001
2,150175566166145E+003	1,5545439E+001	3,8453677E+000	3,9273279E+000	3,8554599E+000	3,9438534E+000	-1,4965136E+000	-5,011268058330350E-001
2,278175562932593E+003	1,5484244E+001	3,8326848E+000	3,9140365E+000	3,8340867E+000	3,9300961E+000	-1,4965327E+000	-5,543365244460503E-001
2,406175559699041E+003	1,5440132E+001	3,8257489E+000	3,9009359E+000	3,8231320E+000	3,9170232E+000	-1,4965010E+000	-6,075462489192220E-001
2,534175556465489E+003	1,5396181E+001	3,8161218E+000	3,8880081E+000	3,8139534E+000	3,9044480E+000	-1,4964247E+000	-6,607559370344016E-001
2,662175553231937E+003	1,5342605E+001	3,8018899E+000	3,8755186E+000	3,7996039E+000	3,8921583E+000	-1,4965200E+000	-7,139655167030692E-001
2,790175549998385E+003	1,5285981E+001	3,7853861E+000	3,8632011E+000	3,7839725E+000	3,8801177E+000	-1,4965518E+000	-7,671750064195063E-001
2,918175546764833E+003	1,5229198E+001	3,7679479E+000	3,8508255E+000	3,7683616E+000	3,8683631E+000	-1,4964819E+000	-8,203847236866951E-001
3,046175543531281E+003	1,5168965E+001	3,7478917E+000	3,8384130E+000	3,7523134E+000	3,8568168E+000	-1,4965010E+000	-8,735943906444443E-001
3,174175540297729E+003	1,5115469E+001	3,7300313E+000	3,8262482E+000	3,7404239E+000	3,8453307E+000	-1,4965072E+000	-9,268040406910379E-001
3,302175537064177E+003	1,5066385E+001	3,7170792E+000	3,8140433E+000	3,7279227E+000	3,8340311E+000	-1,4965454E+000	-9,800136768093110E-001
3,430175533830625E+003	1,5020990E+001	3,7091935E+000	3,8015368E+000	3,7140129E+000	3,8227546E+000	-1,4965518E+000	-1,033223207893259E+000
3,558175530597073E+003	1,4972306E+001	3,7004213E+000	3,7894866E+000	3,6979623E+000	3,8117630E+000	-1,4965072E+000	-1,086432867664324E+000
3,686175527363521E+003	1,4923783E+001	3,6916349E+000	3,7771103E+000	3,6818752E+000	3,8007720E+000	-1,4965708E+000	-1,139642455285635E+000
3,814175524129969E+003	1,4876143E+001	3,6829624E+000	3,7645288E+000	3,6653502E+000	3,7897224E+000	-1,4965518E+000	-1,192852033306373E+000
3,942175520896417E+003	1,4827459E+001	3,6750817E+000	3,7523029E+000	3,6479042E+000	3,7788448E+000	-1,4965454E+000	-1,246061649327344E+000
4,070175517662865E+003	1,4779258E+001	3,6685741E+000	3,7399867E+000	3,6295488E+000	3,7678561E+000	-1,4966217E+000	-1,299271194462233E+000
4,198175515773430E+003	1,4730173E+001	3,6614144E+000	3,7275348E+000	3,6106758E+000	3,7567880E+000	-1,4966408E+000	-1,352480828003592E+000
4,326175514223709E+003	1,4683334E+001	3,6572328E+000	3,7151988E+000	3,5917051E+000	3,7459843E+000	-1,4965010E+000	-1,405690212723891E+000
4,454175512673988E+003	1,4641228E+001	3,6565275E+000	3,7025578E+000	3,5734057E+000	3,7351255E+000	-1,4965454E+000	-1,458899630510423E+000
4,582175511124267E+003	1,4594871E+001	3,6510630E+000	3,6901050E+000	3,5564387E+000	3,7242105E+000	-1,4965963E+000	-1,512108981240385E+000
4,710175509574547E+003	1,4546348E+001	3,6435726E+000	3,6773880E+000	3,5393565E+000	3,7132008E+000	-1,4965327E+000	-1,565318550921599E+000
4,838175508024826E+003	1,4496701E+001	3,6344450E+000	3,6648972E+000	3,5212114E+000	3,7026284E+000	-1,4965200E+000	-1,618528135446866E+000
4,966175506475105E+003	1,4445452E+001	3,6258280E+000	3,6524081E+000	3,5019186E+000	3,6920555E+000	-1,4964690E+000	-1,671737751063724E+000
5,094175504925384E+003	1,4392919E+001	3,6175394E+000	3,6398234E+000	3,4810972E+000	3,6816370E+000	-1,4965391E+000	-1,724947449216756E+000
5,222175503375664E+003	1,4336857E+001	3,6088288E+000	3,6271040E+000	3,4565167E+000	3,6713519E+000	-1,4965010E+000	-1,778157107081261E+000
5,350175501825943E+003	1,4272694E+001	3,6000412E+000	3,6145766E+000	3,4244373E+000	3,6613142E+000	-1,4965072E+000	-1,831366798640967E+000
5,478175500276222E+003	1,4197831E+001	3,5910251E+000	3,6019537E+000	3,3810241E+000	3,6514490E+000	-1,4965327E+000	-1,884576460656338E+000
5,606175498726501E+003	1,4111732E+001	3,5830977E+000	3,5887585E+000	3,3251474E+000	3,6419647E+000	-1,4964499E+000	-1,937785869590163E+000
5,734175497176780E+003	1,4012762E+001	3,5754769E+000	3,5756757E+000	3,2564628E+000	3,6326325E+000	-1,4964945E+000	-1,990995182253414E+000
5,862175495627060E+003	1,3899836E+001	3,5675883E+000	3,5623486E+000	3,1734543E+000	3,6235118E+000	-1,4965327E+000	-2,044204546070894E+000
5,990175494077339E+003	1,3768582E+001	3,5596409E+000	3,5491693E+000	3,0727296E+000	3,6146197E+000	-1,4965264E+000	-2,097413851306352E+000
6,118175492527618E+003	1,3609860E+001	3,5518668E+000	3,5376165E+000	2,9419549E+000	3,6059754E+000	-1,4964881E+000	-2,150623153160890E+000
6,246175490977897E+003	1,3429162E+001	3,5434601E+000	3,5277832E+000	2,7885213E+000	3,5973876E+000	-1,4964118E+000	-2,203832412749450E+000
6,374175489428177E+003	1,3254238E+001	3,5347521E+000	3,5182126E+000	2,6405406E+000	3,5888381E+000	-1,4965391E+000	-2,257041753205710E+000
6,502175487878456E+003	1,3085010E+001	3,5257554E+000	3,5081298E+000	2,4990020E+000	3,5801547E+000	-1,4965200E+000	-2,310251059200433E+000
6,630175486328735E+003	1,2919309E+001	3,5172546E+000	3,4978936E+000	2,3611937E+000	3,5710912E+000	-1,4964690E+000	-2,363460501649618E+000
6,758175484779014E+003	1,2745910E+001	3,5082574E+000	3,4882293E+000	2,2155895E+000	3,5621979E+000	-1,4965136E+000	-2,416669779953970E+000
6,886175483229294E+003	1,2551416E+001	3,4988408E+000	3,4778607E+000	2,0500200E+000	3,5529618E+000	-1,4964819E+000	-2,469878948110660E+000
9,269215454377350E+003	1,4167955E+001	3,6102967E+000	3,5630722E+000	3,3604474E+000	3,6177757E+000	0,0000000E+000	-2,485082024913238E+000